Folder: PrePostCalderaKil_2025/Version_on_OGprivaterepo/Data/Raman/KL_SWRZ_060524/Spectra

Note: Version_on_OGprivaterepo/Data/Raman/KL_SWRZ_060524/Spectra/09 KL0919-001-A-rep1_CRR_DiadFit.txt
1042.414189	670.75
1042.980685	669.75
1043.547124	670.25
1044.113505	669.75
1044.679828	672.75
1045.246093	668.5
1045.8123	669.25
1046.378449	669.75
1046.94454	668.0
1047.510573	667.25
1048.076548	669.25
1048.642465	666.25
1049.208325	665.75
1049.774126	670.5
1050.339869	670.5
1050.905555	669.0
1051.471183	664.75
1052.036752	667.5
1052.602264	666.25
1053.167718	667.5
1053.733114	667.0
1054.298452	665.5
1054.863733	664.25
1055.428955	666.25
1055.994119	664.5
1056.559226	666.25
1057.124275	668.75
1057.689266	666.25
1058.254199	667.75
1058.819074	664.25
1059.383891	663.75
1059.94865	663.5
1060.513352	665.25
1061.077996	666.0
1061.642582	668.0
1062.20711	664.75
1062.77158	664.75
1063.335992	662.5
1063.900347	664.0
1064.464643	661.5
1065.028882	663.0
1065.593063	665.75
1066.157187	665.5
1066.721252	663.75
1067.28526	666.25
1067.84921	669.0
1068.413102	666.0
1068.976936	666.75
1069.540713	663.5
1070.104431	672.0
1070.668092	666.0
1071.231696	664.75
1071.795241	666.5
1072.358729	662.25
1072.922159	664.0
1073.485531	664.5
1074.048845	663.5
1074.612102	664.25
1075.175301	665.75
1075.738442	662.5
1076.301525	664.0
1076.864551	664.25
1077.427519	665.0
1077.990429	661.25
1078.553281	665.75
1079.116076	664.75
1079.678813	665.25
1080.241492	663.75
1080.804114	663.0
1081.366678	661.25
1081.929184	666.0
1082.491633	665.5
1083.054024	662.5
1083.616357	663.0
1084.178632	664.5
1084.74085	662.25
1085.30301	663.0
1085.865113	663.5
1086.427158	662.5
1086.989145	664.75
1087.551074	666.0
1088.112946	664.5
1088.67476	663.25
1089.236517	664.5
1089.798216	665.0
1090.359857	662.0
1090.92144	665.0
1091.482966	664.75
1092.044435	662.5
1092.605845	664.0
1093.167199	664.25
1093.728494	662.5
1094.289732	663.0
1094.850912	662.0
1095.412035	667.0
1095.9731	664.0
1096.534107	664.0
1097.095057	668.25
1097.65595	662.25
1098.216784	666.75
1098.777561	664.25
1099.338281	662.75
1099.898943	663.25
1100.459547	661.25
1101.020094	665.0
1101.580584	662.25
1102.141015	665.0
1102.701389	662.25
1103.261706	665.0
1103.821965	665.25
1104.382167	666.0
1104.942311	666.0
1105.502397	664.0
1106.062426	663.75
1106.622398	667.5
1107.182312	664.0
1107.742168	663.0
1108.301967	662.5
1108.861708	663.75
1109.421392	665.0
1109.981019	665.75
1110.540587	665.5
1111.100099	667.75
1111.659553	663.75
1112.218949	660.75
1112.778288	665.5
1113.33757	661.75
1113.896794	662.75
1114.45596	663.25
1115.015069	661.5
1115.574121	663.5
1116.133115	664.25
1116.692052	662.75
1117.250931	666.75
1117.809753	661.25
1118.368517	662.25
1118.927224	666.5
1119.485873	663.75
1120.044465	664.75
1120.603	664.25
1121.161477	661.25
1121.719897	664.0
1122.278259	661.75
1122.836564	662.5
1123.394812	663.75
1123.953002	661.5
1124.511135	661.0
1125.06921	662.25
1125.627228	665.0
1126.185189	665.25
1126.743092	664.5
1127.300938	662.5
1127.858726	663.75
1128.416457	664.5
1128.974131	664.75
1129.531748	661.5
1130.089307	662.75
1130.646808	661.25
1131.204252	665.5
1131.761639	663.25
1132.318969	662.25
1132.876241	663.5
1133.433456	664.0
1133.

Note: Version_on_OGprivaterepo/Data/Raman/KL_SWRZ_060524/Spectra/12 KL0919-002-A-rep1_CRR_DiadFit.txt
1042.414189	691.25
1042.980685	689.25
1043.547124	690.5
1044.113505	692.75
1044.679828	694.5
1045.246093	690.0
1045.8123	690.25
1046.378449	683.25
1046.94454	684.5
1047.510573	684.25
1048.076548	685.5
1048.642465	685.0
1049.208325	684.0
1049.774126	679.75
1050.339869	683.5
1050.905555	680.25
1051.471183	678.0
1052.036752	680.25
1052.602264	683.25
1053.167718	679.5
1053.733114	678.5
1054.298452	681.5
1054.863733	679.5
1055.428955	680.0
1055.994119	677.5
1056.559226	680.75
1057.124275	681.5
1057.689266	679.75
1058.254199	680.0
1058.819074	680.25
1059.383891	678.75
1059.94865	676.0
1060.513352	677.5
1061.077996	678.5
1061.642582	677.5
1062.20711	677.5
1062.77158	674.75
1063.335992	679.75
1063.900347	677.25
1064.464643	675.75
1065.028882	676.0
1065.593063	678.25
1066.157187	676.25
1066.721252	679.25
1067.28526	678.75
1067.84921	679.5
1068.413102	677.0
1068.976936	679.25
1069.540713	678.5
1070.104431	685.0
1070.668092	681.75
1071.231696	676.25
1071.795241	675.5
1072.358729	675.25
1072.922159	676.0
1073.485531	676.75
1074.048845	677.5
1074.612102	679.5
1075.175301	675.0
1075.738442	677.25
1076.301525	676.5
1076.864551	677.0
1077.427519	676.0
1077.990429	675.25
1078.553281	675.75
1079.116076	674.25
1079.678813	676.25
1080.241492	677.75
1081.929184	676.0
1082.491633	676.75
1083.054024	674.25
1083.616357	674.75
1084.178632	675.25
1084.74085	674.25
1085.30301	676.25
1085.865113	674.0
1086.427158	676.0
1086.989145	678.5
1087.551074	678.25
1088.112946	672.25
1088.67476	676.25
1089.236517	675.0
1089.798216	676.75
1090.359857	677.5
1090.92144	676.75
1091.482966	675.75
1092.044435	676.75
1092.605845	673.0
1093.167199	674.25
1093.728494	675.0
1094.289732	673.5
1094.850912	673.5
1095.412035	678.75
1095.9731	678.75
1096.534107	675.5
1097.095057	682.25
1097.65595	671.5
1098.216784	676.25
1098.777561	674.5
1099.338281	675.0
1099.898943	673.75
1100.459547	677.5
1101.020094	675.75
1101.580584	670.75
1102.141015	672.0
1102.701389	676.5
1103.261706	676.5
1103.821965	676.0
1104.382167	674.5
1104.942311	677.5
1105.502397	678.0
1106.062426	675.25
1106.622398	673.5
1107.182312	676.0
1107.742168	676.5
1108.301967	675.75
1108.861708	675.25
1109.421392	674.25
1109.981019	679.0
1110.540587	678.25
1111.100099	675.5
1111.659553	674.0
1112.218949	676.75
1112.778288	673.0
1113.33757	674.0
1113.896794	672.5
1114.45596	675.0
1115.015069	672.0
1115.574121	675.5
1116.133115	672.75
1116.692052	671.75
1117.250931	679.0
1117.809753	675.5
1118.368517	677.0
1118.927224	675.25
1119.485873	676.5
1120.044465	678.25
1120.603	676.25
1121.161477	675.5
1121.719897	675.25
1122.278259	677.75
1122.836564	675.75
1123.394812	674.5
1123.953002	677.5
1124.511135	672.5
1125.06921	675.75
1125.627228	675.75
1126.185189	677.0
1126.743092	675.75
1127.300938	677.25
1127.858726	678.75
1128.416457	677.75
1128.974131	676.75
1129.531748	677.25
1130.089307	676.0
1130.646808	676.75
1131.204252	680.0
1131.761639	674.75
1132.318969	674.5
1132.876241	677.5
1133.433456	672.75
1133.990614	673.5
1134.547714	676.75
1135.10

Note: README.md
# PrePostCalderaKil_2025
FI data corresponding to PreCaldera and Post Caldera collapse of Kilauea in 2018

File: 18 KL0919-003-A-meltfilm_CRR_DiadFit.txt
1042.41	693.75
1044.68	693.75
1046.94	688.75
1049.21	691.5
1051.47	687.25
1053.73	687.75
1055.99	688.25
1058.25	685.25
1060.51	684.25
1062.77	683.25
1065.03	688.25
1067.29	684.25
1069.54	686.0
1071.8	685.5
1074.05	680.5
1076.3	683.25
1078.55	681.75
1080.8	684.0
1083.05	682.5
1085.3	682.75
1087.55	681.5
1089.8	684.75
1092.04	682.75
1094.29	686.0
1096.53	685.25
1098.78	681.25
1101.02	684.0
1103.26	680.5
1105.5	681.75
1107.74	678.5
1109.98	683.25
1112.22	684.75
1114.46	682.0
1116.69	682.0
1118.93	681.25
1121.16	681.0
1123.39	680.5
1125.63	680.75
1127.86	683.75
1130.09	688.0
1132.32	683.75
1134.55	680.75
1136.78	680.5
1139	680.75
1141.23	684.5
1143.45	677.75
1145.68	681.0
1147.9	678.25
1150.12	679.75
1152.34	681.25
1154.57	682.0
1156.78	683.0
1159	680.5
1161.22	684.75
1163.44	681.25
1165.65	681.5
1167.87	677.75
1170.08	684.25
1172.3	679.25
1174.51	684.25
1176.72	675.75
1178.93	675.25
1181.14	678.75
1183.35	679.25
1185.56	678.5
1187.76	675.75
1189.97	678.0
1192.17	680.25
1194.38	681.0
1196.58	677.0
1198.78	677.0
1200.98	680.75
1203.19	683.25
1205.38	681.25
1207.58	682.0
1209.78	677.0
1211.98	683.25
1214.17	680.25
1216.37	680.25
1218.56	679.25
1220.76	682.0
1222.95	679.75
1225.14	680.75
1227.33	684.25
1229.52	679.25
1231.71	685.25
1233.9	683.25
1236.08	682.75
1238.27	684.5
1240.45	685.0
1242.64	684.5
1244.82	685.0
1247	687.5
1249.18	684.5
1251.36	689.0
1253.54	684.75
1255.72	686.0
1257.9	686.0
1260.08	707.75
1262.25	690.5
1264.43	717.5
1266.6	727.5
1268.78	689.75
1270.95	688.75
1273.12	689.0
1275.29	690.75
1277.46	688.5
1279.63	689.75
1281.8	697.75
1283.96	766.75
1286.13	1953.0
1288.29	724.75
1290.46	700.75
1292.62	693.5
1294.78	688.5
1296.95	690.25
1299.11	691.25
1301.27	689.0
1303.43	687.0
1305.58	688.25
1307.74	689.75
1309.9	690.5
1312.05	689.0
1314.21	686.25
1316.36	684.5
1318.51	687.5
1320.66	687.0
1322.81	685.5
1324.96	687.5
1327.11	691.0
1329.26	683.25
1331.41	685.25
1333.56	690.25
1335.7	687.75
1337.85	685.75
1339.99	685.75
1342.13	687.5
1344.27	685.25
1346.41	688.0
1348.55	684.0
1350.69	685.75
1352.83	686.5
1354.97	686.75
1357.11	688.0
1359.24	685.25
1361.38	685.75
1363.51	689.5
1365.64	683.5
1367.77	689.5
1369.91	691.25
1372.04	693.25
1374.17	690.25
1376.29	696.0
1378.42	690.0
1380.55	692.75
1382.67	700.5
1384.8	706.0
1386.92	757.5
1389.05	2930.5
1391.17	763.75
1393.29	705.25
1395.41	694.5
1397.53	693.25
1399.65	689.25
1401.77	692.0
1403.88	688.0
1406	691.0
1408.11	699.5
1410.23	812.25
1412.34	707.75
1414.45	693.25
1416.57	685.5
1418.68	688.5
1420.79	684.0
1422.89	688.25
1425	688.75
1427.11	695.5
1429.22	686.25
1431.32	684.25
1433.43	685.25
1435.53	679.5
1437.63	682.0
1439.73	685.75
1441.84	682.25
1443.94	682.0
1446.03	683.25
1448.13	683.5
1450.23	678.75
1452.33	683.5
1454.42	680.0
1456.52	677.5
1458.61	678.5
1460.7	675.75
1462.8	683.0
1464.89	678.75
1466.978	677.25
1469.07	680.75
1471.16	678.25
1473.24	675.5
1475.33	677.5
1477.42	677.75
1479.5	681.5
1481.59	675.75
1483.67	676.5
1485.75	676.25
1487.83	678.75
1489.91	677.75
1491.99	675.75
1494.07	675.75
1496.15	676.25
1498.23	675.75
1500.3	675.75
1502.38	675.0
1504.45	674.75
1506.53	678.75
1508.6	675.5
1510.67	689.25
1512.74	677.25
1514.81	678.5
1516.88	678.5
1518.95	679.5
1521.02	679.5
1523.09	678.5
1525.15	679.25
1527.73	679.5
1529.8	676.0
1531.86	679.75
1533.92	679.75
1535.98	677.0
1538.04	676.5
1540.1	681.25
1542.16	681.0
1544.22	676.0
1546.28	679.0
1548.33	678.25
1550.39	677.25
1552.44	676.5
1554.5	679.5
1556.55	680.25
1558.6	681.5
1560.65	678.5
1562.7	681.5
1564.75	684.25
1566.8	688.5
1568.85	687.25
1570.89	680.25
1572.94	676.5
1574.98	680.5
1577.03	677.75
1579.07	678.25
1581.11	676.75
1583.15	679.0
1585.19	676.75
1587.23	674.75
1589.27	676.0
1591.31	679.0
1592.33	672.75