Folder: PrePostCalderaKil_2025/Version_on_OGprivaterepo/Data/Raman/KL_SWRZ_060624/Spectra

Note: Version_on_OGprivaterepo/Data/Raman/KL_SWRZ_060624/Spectra/3 FG04-A1-16-end_CRR_DiadFit.txt
1042.414189	697.0
1042.980685	692.5999756
1043.547124	689.5999756
1044.113505	692.4000244
1044.679828	689.4000244
1045.246093	689.5999756
1045.8123	687.4000244
1046.378449	688.5999756
1046.94454	686.2000122
1047.510573	683.4000244
1048.076548	682.2000122
1048.642465	685.2000122
1049.208325	683.7999878
1049.774126	683.4000244
1050.339869	686.0
1050.905555	682.5999756
1051.471183	678.4000244
1052.036752	676.2000122
1052.602264	682.0
1053.167718	677.2000122
1053.733114	677.5999756
1054.298452	677.5999756
1054.863733	678.5999756
1055.428955	676.4000244
1055.994119	677.2000122
1056.559226	676.5999756
1057.124275	679.0
1057.689266	680.5999756
1058.254199	676.5999756
1058.819074	675.5999756
1059.383891	676.0
1059.94865	679.2000122
1060.513352	675.4000244
1061.077996	674.2000122
1061.642582	673.4000244
1062.20711	675.0
1062.77158	677.0
1063.335992	675.2000122
1063.900347	674.7999878
1064.464643	674.7999878
1065.028882	677.2000122
1065.593063	677.4000244
1066.157187	677.4000244
1066.721252	676.0
1067.28526	678.5999756
1067.84921	675.4000244
1068.413102	675.5999756
1068.976936	677.7999878
1069.540713	676.0
1070.104431	679.2000122
1070.668092	674.2000122
1071.231696	675.7999878
1071.795241	675.5999756
1072.358729	679.2000122
1072.922159	677.2000122
1073.485531	672.7999878
1074.048845	674.0
1074.612102	675.7999878
1075.175301	674.4000244
1075.738442	674.0
1076.301525	675.7999878
1076.864551	677.5999756
1077.427519	673.7999878
1077.990429	675.7999878
1078.553281	676.7999878
1079.116076	675.7999878
1079.678813	674.5999756
1080.241492	678.0
1080.804114	676.5999756
1081.366678	676.5999756
1081.929184	679.5999756
1082.491633	679.7999878
1083.054024	680.5999756
1083.616357	676.7999878
1084.178632	679.0
1084.74085	678.0
1085.30301	674.2000122
1085.865113	675.0
1086.427158	678.4000244
1086.989145	677.4000244
1087.551074	677.2000122
1088.112946	681.5999756
1088.67476	679.0
1089.236517	680.5999756
1089.798216	678.7999878
1090.359857	681.2000122
1090.92144	677.5999756
1091.482966	680.2000122
1092.044435	684.2000122
1092.605845	681.0
1093.167199	675.5999756
1093.728494	682.4000244
1094.289732	679.7999878
1094.850912	679.4000244
1095.412035	682.5999756
1095.9731	679.7999878
1096.534107	676.0
1097.095057	686.2000122
1097.65595	676.5999756
1098.216784	673.5999756
1098.777561	673.7999878
1099.338281	675.0
1099.898943	674.4000244
1100.459547	675.7999878
1101.020094	676.0
1101.580584	673.2000122
1102.141015	674.0
1102.701389	673.7999878
1103.261706	673.5999756
1103.821965	674.0
1104.382167	674.5999756
1104.942311	672.7999878
1105.502397	671.5999756
1106.062426	671.4000244
1106.622398	671.7999878
1107.182312	674.4000244
1107.742168	671.2000122
1108.301967	671.4000244
1108.861708	672.0
1109.421392	671.7999878
1109.981019	672.2000122
1110.540587	673.2000122
1111.100099	671.2000122
1111.659553	670.7999878
1112.218949	674.2000122
1112.778288	671.5999756
1113.33757	671.5999756
1113.896794	671.0
1114.45596	670.5999756
1115.015069	672.0
1115.574121	670.2000122
1116.133115	672.0
1116.

Note: Version_on_OGprivaterepo/Data/Raman/KL_SWRZ_060624/Spectra/08 K24_22_FIA_CRR_DiadFit.txt
1042.414189	720.25
1042.980685	712.25
1043.547124	716.0
1044.113505	713.25
1044.679828	711.5
1045.246093	711.75
1045.8123	704.5
1046.378449	707.75
1046.94454	702.5
1047.510573	703.75
1048.076548	706.5
1048.642465	699.25
1049.208325	703.0
1049.774126	700.5
1050.339869	699.5
1050.905555	701.5
1051.471183	698.25
1052.036752	697.25
1052.602264	697.5
1053.167718	693.25
1053.733114	699.75
1054.298452	697.5
1054.863733	699.5
1055.428955	694.0
1055.994119	695.5
1056.559226	690.75
1057.124275	692.25
1057.689266	694.75
1058.254199	690.0
1058.819074	692.5
1059.383891	694.5
1059.94865	692.75
1060.513352	689.0
1061.077996	694.25
1061.642582	687.75
1062.20711	691.25
1062.77158	691.5
1063.335992	691.75
1063.900347	690.5
1064.464643	689.5
1065.028882	691.0
1065.593063	691.5
1066.157187	690.75
1066.721252	687.0
1067.28526	688.75
1067.84921	685.75
1068.413102	685.5
1068.976936	690.25
1069.540713	690.75
1070.104431	691.0
1070.668092	686.5
1071.231696	686.5
1071.795241	687.75
1072.358729	686.0
1072.922159	685.25
1073.485531	688.25
1074.048845	686.25
1074.612102	686.5
1075.175301	685.5
1075.738442	689.5
1076.301525	686.0
1076.864551	688.5
1077.427519	685.0
1077.990429	681.25
1078.553281	685.25
1079.116076	687.0
1079.678813	682.25
1080.241492	685.75
1080.804114	688.75
1081.366678	684.75
1081.929184	688.25
1082.491633	687.25
1083.054024	684.0
1083.616357	686.5
1084.178632	689.0
1084.74085	686.25
1085.30301	687.25
1085.865113	688.0
1086.427158	685.5
1086.989145	683.5
1087.551074	684.25
1088.112946	682.25
1088.67476	686.0
1089.236517	686.75
1089.798216	683.0
1090.359857	680.25
1090.92144	685.75
1091.482966	687.5
1092.044435	685.75
1092.605845	684.0
1093.167199	683.25
1093.728494	683.75
1094.289732	685.5
1094.850912	684.25
1095.412035	692.25
1095.9731	685.0
1096.534107	683.5
1097.095057	691.25
1097.65595	686.75
1098.216784	686.0
1098.777561	685.5
1099.338281	683.75
1099.898943	684.5
1100.459547	681.5
1101.020094	683.0
1101.580584	682.0
1102.141015	683.5
1102.701389	682.0
1103.261706	685.25
1103.821965	682.25
1104.382167	680.5
1104.942311	682.5
1105.502397	688.5
1106.062426	683.75
1106.622398	685.5
1107.182312	682.0
1107.742168	682.5
1108.301967	685.0
1108.861708	681.25
1109.421392	683.0
1109.981019	686.75
1110.540587	682.75
1111.100099	681.75
1111.659553	685.75
1112.218949	684.25
1112.778288	682.75
1113.33757	688.75
1113.896794	683.25
1114.45596	686.75
1115.015069	682.5
1115.574121	685.0
1116.133115	683.0
1116.692052	684.25
1117.250931	685.0
1117.809753	683.0
1118.368517	684.5
1118.927224	684.75
1119.485873	684.25
1120.044465	681.25
1120.603	682.75
1121.161477	681.75
1121.719897	684.25
1122.278259	686.5
1122.836564	678.75
1123.394812	683.5
1123.953002	682.5
1124.511135	684.25
1125.06921	683.75
1125.627228	683.75
1126.185189	681.5
1126.743092	680.5
1127.300938	689.0
1127.858726	682.25
1128.416457	681.0
1128.974131	686.0
1129.531748	688.0
1130.089307	684.0
1130.646808	681.5
1131.204252	684.75
1131.761639	684.25
1132.318969	683.75
1132.876241	683.75
1133.433456	683.75
1133.9

Note: README.md
# PrePostCalderaKil_2025
FI data corresponding to PreCaldera and Post Caldera collapse of Kilauea in 2018

File: 14 KL0919-005-A-meltfilm_CRR_DiadFit.txt
1042.41	708.25
1044.68	706.0
1046.94	699.75
1049.21	695.25
1051.47	690.25
1053.73	687.25
1055.99	693.5
1058.25	688.5
1060.51	685.0
1062.77	685.25
1065.03	687.25
1067.29	682.25
1069.54	680.75
1071.8	681.25
1074.05	680.5
1076.3	681.75
1078.55	685.25
1080.8	681.5
1083.05	680.75
1085.3	680.25
1087.55	684.75
1089.8	680.25
1092.04	683.0
1094.29	683.25
1096.53	683.0
1098.78	682.75
1101.02	680.25
1103.26	678.75
1105.5	678.25
1107.74	679.25
1109.98	681.0
1112.22	682.0
1114.46	679.25
1116.69	681.25
1118.93	682.25
1121.16	680.5
1123.39	678.25
1125.63	676.75
1127.86	678.75
1130.09	681.75
1132.32	683.5
1134.55	678.75
1136.78	681.75
1139	683.0
1141.23	680.25
1143.45	681.5
1145.68	679.75
1147.9	682.0
1150.12	682.75
1152.34	681.5
1154.57	681.25
1156.78	680.25
1159	682.25
1161.22	681.5
1163.44	681.5
1165.65	675.0
1167.87	681.75
1170.08	680.5
1172.3	683.5
1174.51	685.75
1176.72	680.0
1178.93	682.0
1181.14	686.0
1183.35	679.5
1185.56	685.25
1187.76	686.0
1189.97	680.5
1192.17	680.0
1194.38	684.0
1196.58	685.0
1198.78	682.75
1200.98	681.75
1203.19	682.5
1205.38	682.75
1207.58	680.5
1209.78	684.75
1211.98	682.5
1214.17	684.0
1216.37	682.75
1218.56	681.0
1220.76	681.75
1222.95	681.5
1225.14	681.0
1227.33	681.5
1229.52	684.5
1231.71	684.25
1233.9	685.0
1236.08	681.0
1238.27	686.75
1240.45	685.5
1242.64	683.5
1244.82	686.0
1247	686.75
1249.18	688.0
1251.36	689.5
1253.54	686.75
1255.72	686.0
1257.9	681.25
1260.08	701.0
1262.25	685.5
1264.43	695.75
1266.6	692.5
1268.78	689.25
1270.95	689.0
1273.12	687.5
1275.29	689.0
1277.46	686.75
1279.63	687.75
1281.8	689.0
1283.96	715.0
1286.13	821.75
1288.29	690.5
1290.46	691.75
1292.62	690.5
1294.78	684.75
1296.95	686.25
1299.11	685.25
1301.27	688.75
1303.43	686.5
1305.58	687.0
1307.74	690.5
1309.9	685.0
1312.05	685.0
1314.21	685.25
1316.36	685.0
1318.51	687.75
1320.66	684.0
1322.81	686.5
1324.96	689.75
1327.11	686.0
1329.26	687.0
1331.41	687.0
1333.56	687.25
1335.7	685.0
1337.85	687.75
1339.99	686.25
1342.13	684.75
1344.27	688.5
1346.41	688.5
1348.55	687.5
1350.69	688.5
1352.83	684.75
1354.97	689.75
1357.11	686.0
1359.24	691.25
1361.38	689.75
1363.51	687.75
1365.64	690.0
1367.77	691.0
1369.91	686.25
1372.04	688.25
1374.17	692.5
1376.29	692.0
1378.42	689.25
1380.55	688.75
1382.67	692.5
1384.8	690.25
1386.92	709.75
1389.05	1106.25
1391.17	698.0
1393.29	692.5
1395.41	694.0
1397.53	691.25
1399.65	693.5
1401.77	688.0
1403.88	691.5
1406	692.0
1408.11	691.0
1410.23	717.0
1412.34	691.0
1414.45	694.0
1416.57	688.25
1418.68	691.25
1420.79	687.0
1422.89	692.5
1425	688.5
1427.11	689.25
1429.22	688.0
1431.32	690.75
1433.43	688.5
1435.53	684.75
1437.63	689.25
1439.73	687.0
1441.84	694.5
1443.94	688.5
1446.03	687.25
1448.13	687.25
1450.23	690.0
1452.33	688.5
1454.42	692.25
1456.52	689.5
1458.61	695.25
1460.7	691.5
1462.8	698.5
1465.41	683.0
1467.5	688.25
1469.59	687.25
1471.68	690.5
1473.77	688.75
1475.85	690.5
1477.94	692.5
1480.02	690.0
1482.11	693.25
1484.19	687.0
1486.27	686.5
1488.35	689.75
1490.43	685.5
1492.51	688.5
1494.59	688.5
1496.67	688.75
1498.75	687.75
1500.82	692.5
1502.9	689.25
1504.97	686.0
1507.05	691.75
1509.12	686.75
1511.19	688.0
1513.26	692.0
1515.33	688.0
1517.4	691.0
1519.47	689.0
1521.54	691.75
1523.6	692.25
1525.67	692.25
1527.73	692.25
1529.8	687.75
1531.86	690.5
1533.92	689.25
1535.98	690.25
1538.04	689.75
1540.1	691.0
1542.16	688.0
1544.22	686.5
1546.28	695.0
1548.33	694.25
1550.39	690.75
1552.44	693.75
1554.5	691.75
1556.55	695.25
1558.6	693.5
1560.65	689.25
1562.7	696.0
1564.75	692.75
1566.8	694.75
1568.85	690.75
1570.89	695.5
1572.94	687.25
1574.98	693.25
1577.03	691.0
1579.07	690.5
1581.11	692.75
1583.15	695.25
1585.19	693.0
1587.23	691.75
1589.27	691.75
1591.31	693.0
1592.33	689.75

File: 40 KL0919-010-C-meltfilm_CRR_DiadFit.txt
1042.41	718.0
1044.68	712.5
1046.94	702.0
1049.21	702.25
1051.47	693.0
1053.73	693.25
1055.99	691.5
1058.25	688.25
1060.51	690.0
1062.77	688.25
1065.03	688.75
1067.29	687.25
1069.54	690.25
1071.8	686.0
1074.05	683.75
1076.3	683.25
1078.55	685.0
1080.8	682.0
1083.05	682.25
1085.3	681.25
1087.55	683.75
1089.8	686.75
1092.04	685.75
1094.29	685.25
1096.53	680.25
1098.78	682.25
1101.02	683.5
1103.26	677.5
1105.5	684.75
1107.74	680.75
1109.98	684.5
1112.22	680.0
1114.46	678.25
1116.69	680.0
1118.93	681.25
1121.16	678.0
1123.39	682.5
1125.63	685.75
1127.86	694.5
1130.09	689.75
1132.32	685.5
1134.55	685.5
1136.78	679.0
1139	681.5
1141.23	683.25
1143.45	681.0
1145.68	679.5
1147.9	684.5
1150.12	681.75
1152.34	681.0
1154.57	675.0
1156.78	681.75
1159	681.75
1161.22	681.0
1163.44	684.75
1165.65	681.75
1167.87	681.5
1170.08	681.0
1172.3	682.75
1174.51	678.5
1176.72	678.75
1178.93	679.25
1181.14	681.0
1183.35	678.75
1185.56	678.0
1187.76	683.0
1189.97	680.0
1192.17	680.25
1194.38	681.25
1196.58	680.5
1198.78	681.25
1200.98	678.5
1203.19	681.5
1205.38	680.0
1207.58	678.75
1209.78	681.75
1211.98	684.25
1214.17	680.0
1216.37	682.25
1218.56	676.75
1220.76	680.25
1222.95	677.0
1225.14	680.25
1227.33	678.5
1229.52	678.0
1231.71	686.25
1233.9	687.0
1236.08	679.5
1238.27	680.25
1240.45	679.25
1242.64	679.5
1244.82	679.5
1247	680.75
1249.18	684.0
1251.36	680.0
1253.54	679.0
1255.72	680.75
1257.9	680.5
1260.08	693.75
1262.25	682.75
1264.43	680.0
1266.6	690.25
1268.78	677.25
1270.95	683.0
1273.12	681.75
1275.29	676.75
1277.46	682.25
1279.63	679.25
1281.8	682.75
1283.96	685.5
1286.13	883.25
1288.29	689.5
1290.46	680.0
1292.62	677.25
1294.78	681.0
1296.95	680.25
1299.11	681.25
1301.27	681.5
1303.43	677.5
1305.58	679.5
1307.74	679.25
1309.9	679.25
1312.05	676.75
1314.21	674.5
1316.36	678.0
1318.51	677.75
1320.66	678.0
1322.81	675.0
1324.96	680.0
1327.11	679.0
1329.26	682.25
1331.41	678.75
1333.56	680.0
1335.7	677.25
1337.85	676.0
1339.99	680.25
1342.13	678.0
1344.27	680.25
1346.41	680.25
1348.55	678.75
1350.69	678.75
1352.83	679.25
1354.97	680.0
1357.11	678.5
1359.24	682.0
1361.38	680.25
1363.51	682.25
1365.64	679.25
1367.77	681.75
1369.91	678.75
1372.04	675.0
1374.17	681.25
1376.29	676.75
1378.42	679.25
1380.55	678.5
1382.67	679.25
1384.8	679.0
1386.92	684.75
1389.05	895.0
1391.17	689.5
1393.29	678.75
1395.41	681.0
1397.53	676.5
1399.65	680.0
1401.77	679.5
1403.88	679.25
1406	676.25
1408.11	678.25
1410.23	699.25
1412.34	684.0
1414.45	679.0
1416.57	676.25
1418.68	680.25
1420.79	680.25
1422.89	680.0
1425	677.0
1427.11	678.75
1429.22	682.25
1431.32	678.75
1433.43	679.75
1435.53	675.75
1437.63	678.0
1439.73	678.0
1441.84	678.75
1443.94	676.25
1446.03	677.25
1448.13	680.75
1450.23	679.75
1452.33	677.25
1454.42	680.75
1456.52	674.75
1458.61	678.75
1460.7	680.0
1462.8	687.25
1465.93	679.5
1468.02	678.25
1470.11	681.0
1472.2	684.75
1474.29	677.5
1476.37	682.75
1478.46	680.75
1480.54	679.5
1482.63	682.75
1484.71	678.75
1486.79	679.0
1488.87	677.0
1490.95	678.5
1493.03	678.5
1495.11	679.0
1497.19	675.75
1499.27	676.5
1501.34	674.25
1503.42	674.25
1505.49	677.25
1507.56	673.5
1509.64	677.25
1511.71	680.0
1513.78	675.0
1515.85	677.75
1517.92	674.25
1519.99	682.0
1522.05	675.75
1524.12	677.25
1526.19	711.75
1528.25	682.5
1530.31	682.0
1532.38	676.25
1534.44	678.25
1536.5	680.75
1538.56	678.0
1540.62	677.5
1542.68	678.75
1544.73	676.75
1546.79	679.5
1548.85	681.0
1550.9	680.75
1552.96	679.0
1555.01	683.75
1557.06	680.25
1559.11	675.0
1561.16	684.25
1563.21	679.75
1565.26	687.0
1567.31	685.5
1569.36	681.0
1571.4	679.0
1573.45	680.5
1575.49	679.5
1577.54	677.75
1579.58	681.0
1581.62	677.5
1583.66	679.5
1585.7	676.5
1587.74	679.5
1589.78	678.25
1591.82	679.75
1592.33	680.75